{
  "resourceType": "Bundle",
  "id": "dtr-patient-data",
  "type": "transaction",
  "entry": [ {
    "resource": {
      "resourceType": "Condition",
      "id": "Condition-Snoring-FacilityBasedPSG-test-case-3",
      "clinicalStatus": {
        "coding": [ {
          "system": "http://terminology.hl7.org/CodeSystem/condition-clinical",
          "code": "active",
          "display": "Active"
        } ]
      },
      "verificationStatus": {
        "coding": [ {
          "system": "http://terminology.hl7.org/CodeSystem/condition-ver-status",
          "code": "confirmed",
          "display": "Confirmed"
        } ]
      },
      "category": [ {
        "coding": [ {
          "system": "http://terminology.hl7.org/CodeSystem/condition-category",
          "code": "problem-list-item",
          "display": "Problem List Item"
        } ]
      } ],
      "code": {
        "coding": [ {
          "system": "http://hl7.org/fhir/sid/icd-10-cm",
          "code": "I50",
          "display": "Heart failure"
        } ]
      },
      "subject": {
        "reference": "Patient/Patient-heart-failure"
      },
      "onsetDateTime": "2023-01-01T17:30:00-07:00"
    },
    "request": {
      "method": "PUT",
      "url": "Condition/Condition-Snoring-FacilityBasedPSG-test-case-3"
    }
  }, {
    "resource": {
      "resourceType": "Patient",
      "id": "Patient-heart-failure",
      "name": [ {
        "text": "Jim Toth",
        "family": "Toth",
        "given": [ "Jim" ]
      } ],
      "gender": "male",
      "birthDate": "1970-07-27"
    },
    "request": {
      "method": "PUT",
      "url": "Patient/Patient-heart-failure"
    }
  }, {
    "resource": {
      "resourceType": "Patient",
      "id": "patient-with-EDS-ObesityHypoventilationSyndrome",
      "meta": {
        "profile": [ "http://hl7.org/fhir/us/qicore/StructureDefinition/qicore-encounter" ]
      },
      "name": [ {
        "text": "Patty Grill",
        "family": "Grill",
        "given": [ "Patty" ]
      } ],
      "gender": "female",
      "birthDate": "2000-01-01"
    },
    "request": {
      "method": "PUT",
      "url": "Patient/patient-with-EDS-ObesityHypoventilationSyndrome"
    }
  }, {
    "resource": {
      "resourceType": "Condition",
      "id": "Condition-EDS-FacilityBasedPSG-test-case-1",
      "meta": {
        "profile": [ "http://hl7.org/fhir/us/qicore/StructureDefinition/qicore-encounter" ]
      },
      "clinicalStatus": {
        "coding": [ {
          "system": "http://terminology.hl7.org/CodeSystem/condition-clinical",
          "code": "active",
          "display": "Active"
        } ]
      },
      "verificationStatus": {
        "coding": [ {
          "system": "http://terminology.hl7.org/CodeSystem/condition-ver-status",
          "code": "confirmed",
          "display": "Confirmed"
        } ]
      },
      "category": [ {
        "coding": [ {
          "system": "http://terminology.hl7.org/CodeSystem/condition-category",
          "code": "problem-list-item",
          "display": "Problem List Item"
        } ]
      } ],
      "code": {
        "coding": [ {
          "system": "http://snomed.info/sct",
          "code": "194439006",
          "display": "Disorder of excessive somnolence (disorder)"
        } ]
      },
      "subject": {
        "reference": "Patient/patient-with-EDS-ObesityHypoventilationSyndrome"
      },
      "onsetDateTime": "2023-01-12T16:30:00-07:00"
    },
    "request": {
      "method": "PUT",
      "url": "Condition/Condition-EDS-FacilityBasedPSG-test-case-1"
    }
  }, {
    "resource": {
      "resourceType": "Observation",
      "id": "Observation-obesity-FacilityBasedPSG-test-case-1",
      "status": "final",
      "code": {
        "coding": [ {
          "system": "http://snomed.info/sct",
          "code": "238134004",
          "display": "Generalized obesity (disorder)"
        } ]
      },
      "subject": {
        "reference": "Patient/patient-with-EDS-ObesityHypoventilationSyndrome"
      },
      "effectiveDateTime": "2023-08-12T15:00:00-07:00",
      "valueBoolean": true
    },
    "request": {
      "method": "PUT",
      "url": "Observation/Observation-obesity-FacilityBasedPSG-test-case-1"
    }
  }, {
    "resource": {
      "resourceType": "Observation",
      "id": "Observation-hypoventilation-FacilityBasedPSG-test-case-1",
      "status": "final",
      "code": {
        "coding": [ {
          "system": "http://snomed.info/sct",
          "code": "15993004",
          "display": "Alveolar hypoventilation (finding)"
        } ]
      },
      "subject": {
        "reference": "Patient/patient-with-EDS-ObesityHypoventilationSyndrome"
      },
      "effectiveDateTime": "2023-08-12T15:00:00-07:00",
      "valueBoolean": true
    },
    "request": {
      "method": "PUT",
      "url": "Observation/Observation-hypoventilation-FacilityBasedPSG-test-case-1"
    }
  }, {
    "resource": {
      "resourceType": "Condition",
      "id": "Condition-Snoring-FacilityBasedPSG-test-case-1",
      "meta": {
        "profile": [ "http://hl7.org/fhir/us/qicore/StructureDefinition/qicore-encounter" ]
      },
      "clinicalStatus": {
        "coding": [ {
          "system": "http://terminology.hl7.org/CodeSystem/condition-clinical",
          "code": "active",
          "display": "Active"
        } ]
      },
      "verificationStatus": {
        "coding": [ {
          "system": "http://terminology.hl7.org/CodeSystem/condition-ver-status",
          "code": "confirmed",
          "display": "Confirmed"
        } ]
      },
      "category": [ {
        "coding": [ {
          "system": "http://terminology.hl7.org/CodeSystem/condition-category",
          "code": "problem-list-item",
          "display": "Problem List Item"
        } ]
      } ],
      "code": {
        "coding": [ {
          "system": "http://hl7.org/fhir/sid/icd-10-cm",
          "code": "R06.83",
          "display": "Snoring"
        } ]
      },
      "subject": {
        "reference": "Patient/patient-with-EDS-ObesityHypoventilationSyndrome"
      },
      "onsetDateTime": "2023-02-01T11:30:00-07:00"
    },
    "request": {
      "method": "PUT",
      "url": "Condition/Condition-Snoring-FacilityBasedPSG-test-case-1"
    }
  }, {
    "resource": {
      "resourceType": "Patient",
      "id": "Patient-drowsy-cant-drive",
      "name": [ {
        "text": "Ava Elizabeth Phillippe",
        "family": "Phillippe",
        "given": [ "Ava" ]
      } ],
      "gender": "female",
      "birthDate": "1999-09-09"
    },
    "request": {
      "method": "PUT",
      "url": "Patient/Patient-drowsy-cant-drive"
    }
  }, {
    "resource": {
      "resourceType": "Observation",
      "id": "Observation-gets-drowsy",
      "status": "final",
      "code": {
        "coding": [ {
          "system": "http://snomed.info/sct",
          "code": "267088000",
          "display": "Gets drowsiness (finding)"
        } ]
      },
      "subject": {
        "reference": "Patient/Patient-drowsy-cant-drive"
      },
      "effectiveDateTime": "2023-01-10T16:30:00-07:00",
      "valueBoolean": true
    },
    "request": {
      "method": "PUT",
      "url": "Observation/Observation-gets-drowsy"
    }
  }, {
    "resource": {
      "resourceType": "Bundle",
      "id": "tests-Patient-drowsy-cant-drive-bundle",
      "type": "transaction",
      "entry": [ {
        "resource": {
          "resourceType": "Patient",
          "id": "Patient-drowsy-cant-drive",
          "name": [ {
            "text": "Ava Elizabeth Phillippe",
            "family": "Phillippe",
            "given": [ "Ava" ]
          } ],
          "gender": "female",
          "birthDate": "1999-09-09"
        },
        "request": {
          "method": "PUT",
          "url": "Patient/Patient-drowsy-cant-drive"
        }
      }, {
        "resource": {
          "resourceType": "Observation",
          "id": "Observation-gets-drowsy",
          "status": "final",
          "code": {
            "coding": [ {
              "system": "http://snomed.info/sct",
              "code": "267088000",
              "display": "Gets drowsiness (finding)"
            } ]
          },
          "subject": {
            "reference": "Patient/Patient-drowsy-cant-drive"
          },
          "effectiveDateTime": "2023-01-10T16:30:00-07:00",
          "valueBoolean": true
        },
        "request": {
          "method": "PUT",
          "url": "Observation/Observation-gets-drowsy"
        }
      } ]
    },
    "request": {
      "method": "PUT",
      "url": "Bundle/tests-Patient-drowsy-cant-drive-bundle"
    }
  }, {
    "resource": {
      "resourceType": "Bundle",
      "id": "tests-Patient-patient-with-EDS-ObesityHypoventilationSyndrome-bundle",
      "type": "transaction",
      "entry": [ {
        "resource": {
          "resourceType": "Patient",
          "id": "patient-with-EDS-ObesityHypoventilationSyndrome",
          "meta": {
            "profile": [ "http://hl7.org/fhir/us/qicore/StructureDefinition/qicore-encounter" ]
          },
          "name": [ {
            "text": "Patty Grill",
            "family": "Grill",
            "given": [ "Patty" ]
          } ],
          "gender": "female",
          "birthDate": "2000-01-01"
        },
        "request": {
          "method": "PUT",
          "url": "Patient/patient-with-EDS-ObesityHypoventilationSyndrome"
        }
      }, {
        "resource": {
          "resourceType": "Condition",
          "id": "Condition-EDS-FacilityBasedPSG-test-case-1",
          "meta": {
            "profile": [ "http://hl7.org/fhir/us/qicore/StructureDefinition/qicore-encounter" ]
          },
          "clinicalStatus": {
            "coding": [ {
              "system": "http://terminology.hl7.org/CodeSystem/condition-clinical",
              "code": "active",
              "display": "Active"
            } ]
          },
          "verificationStatus": {
            "coding": [ {
              "system": "http://terminology.hl7.org/CodeSystem/condition-ver-status",
              "code": "confirmed",
              "display": "Confirmed"
            } ]
          },
          "category": [ {
            "coding": [ {
              "system": "http://terminology.hl7.org/CodeSystem/condition-category",
              "code": "problem-list-item",
              "display": "Problem List Item"
            } ]
          } ],
          "code": {
            "coding": [ {
              "system": "http://snomed.info/sct",
              "code": "194439006",
              "display": "Disorder of excessive somnolence (disorder)"
            } ]
          },
          "subject": {
            "reference": "Patient/patient-with-EDS-ObesityHypoventilationSyndrome"
          },
          "onsetDateTime": "2023-01-12T16:30:00-07:00"
        },
        "request": {
          "method": "PUT",
          "url": "Condition/Condition-EDS-FacilityBasedPSG-test-case-1"
        }
      }, {
        "resource": {
          "resourceType": "Observation",
          "id": "Observation-obesity-FacilityBasedPSG-test-case-1",
          "status": "final",
          "code": {
            "coding": [ {
              "system": "http://snomed.info/sct",
              "code": "238134004",
              "display": "Generalized obesity (disorder)"
            } ]
          },
          "subject": {
            "reference": "Patient/patient-with-EDS-ObesityHypoventilationSyndrome"
          },
          "effectiveDateTime": "2023-08-12T15:00:00-07:00",
          "valueBoolean": true
        },
        "request": {
          "method": "PUT",
          "url": "Observation/Observation-obesity-FacilityBasedPSG-test-case-1"
        }
      }, {
        "resource": {
          "resourceType": "Observation",
          "id": "Observation-hypoventilation-FacilityBasedPSG-test-case-1",
          "status": "final",
          "code": {
            "coding": [ {
              "system": "http://snomed.info/sct",
              "code": "15993004",
              "display": "Alveolar hypoventilation (finding)"
            } ]
          },
          "subject": {
            "reference": "Patient/patient-with-EDS-ObesityHypoventilationSyndrome"
          },
          "effectiveDateTime": "2023-08-12T15:00:00-07:00",
          "valueBoolean": true
        },
        "request": {
          "method": "PUT",
          "url": "Observation/Observation-hypoventilation-FacilityBasedPSG-test-case-1"
        }
      }, {
        "resource": {
          "resourceType": "Condition",
          "id": "Condition-Snoring-FacilityBasedPSG-test-case-1",
          "meta": {
            "profile": [ "http://hl7.org/fhir/us/qicore/StructureDefinition/qicore-encounter" ]
          },
          "clinicalStatus": {
            "coding": [ {
              "system": "http://terminology.hl7.org/CodeSystem/condition-clinical",
              "code": "active",
              "display": "Active"
            } ]
          },
          "verificationStatus": {
            "coding": [ {
              "system": "http://terminology.hl7.org/CodeSystem/condition-ver-status",
              "code": "confirmed",
              "display": "Confirmed"
            } ]
          },
          "category": [ {
            "coding": [ {
              "system": "http://terminology.hl7.org/CodeSystem/condition-category",
              "code": "problem-list-item",
              "display": "Problem List Item"
            } ]
          } ],
          "code": {
            "coding": [ {
              "system": "http://hl7.org/fhir/sid/icd-10-cm",
              "code": "R06.83",
              "display": "Snoring"
            } ]
          },
          "subject": {
            "reference": "Patient/patient-with-EDS-ObesityHypoventilationSyndrome"
          },
          "onsetDateTime": "2023-02-01T11:30:00-07:00"
        },
        "request": {
          "method": "PUT",
          "url": "Condition/Condition-Snoring-FacilityBasedPSG-test-case-1"
        }
      } ]
    },
    "request": {
      "method": "PUT",
      "url": "Bundle/tests-Patient-patient-with-EDS-ObesityHypoventilationSyndrome-bundle"
    }
  }, {
    "resource": {
      "resourceType": "Bundle",
      "id": "tests-Patient-EDS-Snoring-apnea-bundle",
      "type": "transaction",
      "entry": [ {
        "resource": {
          "resourceType": "Patient",
          "id": "Patient-EDS-Snoring-apnea",
          "name": [ {
            "text": "Ryan Phillippe",
            "family": "Phillippe",
            "given": [ "Ryan" ]
          } ],
          "gender": "male",
          "birthDate": "1974-09-10"
        },
        "request": {
          "method": "PUT",
          "url": "Patient/Patient-EDS-Snoring-apnea"
        }
      }, {
        "resource": {
          "resourceType": "Condition",
          "id": "Condition-snoring-FacilityBasedPSG-test-case-5",
          "clinicalStatus": {
            "coding": [ {
              "system": "http://terminology.hl7.org/CodeSystem/condition-clinical",
              "code": "active",
              "display": "Active"
            } ]
          },
          "verificationStatus": {
            "coding": [ {
              "system": "http://terminology.hl7.org/CodeSystem/condition-ver-status",
              "code": "confirmed",
              "display": "Confirmed"
            } ]
          },
          "category": [ {
            "coding": [ {
              "system": "http://terminology.hl7.org/CodeSystem/condition-category",
              "code": "problem-list-item",
              "display": "Problem List Item"
            } ]
          } ],
          "code": {
            "coding": [ {
              "system": "http://hl7.org/fhir/sid/icd-10-cm",
              "code": "R06.83",
              "display": "Snoring"
            } ]
          },
          "subject": {
            "reference": "Patient/Patient-EDS-Snoring-apnea"
          },
          "onsetDateTime": "2023-01-03T11:30:00-07:00"
        },
        "request": {
          "method": "PUT",
          "url": "Condition/Condition-snoring-FacilityBasedPSG-test-case-5"
        }
      }, {
        "resource": {
          "resourceType": "Condition",
          "id": "Condition-EDS-FacilityBasedPSG-test-case-5",
          "clinicalStatus": {
            "coding": [ {
              "system": "http://terminology.hl7.org/CodeSystem/condition-clinical",
              "code": "active",
              "display": "Active"
            } ]
          },
          "verificationStatus": {
            "coding": [ {
              "system": "http://terminology.hl7.org/CodeSystem/condition-ver-status",
              "code": "confirmed",
              "display": "Confirmed"
            } ]
          },
          "category": [ {
            "coding": [ {
              "system": "http://terminology.hl7.org/CodeSystem/condition-category",
              "code": "problem-list-item",
              "display": "Problem List Item"
            } ]
          } ],
          "code": {
            "coding": [ {
              "system": "http://snomed.info/sct",
              "code": "370971007",
              "display": "Somnolence syndrome (disorder)"
            } ]
          },
          "subject": {
            "reference": "Patient/Patient-EDS-Snoring-apnea"
          },
          "onsetDateTime": "2023-02-02T17:30:00-07:00"
        },
        "request": {
          "method": "PUT",
          "url": "Condition/Condition-EDS-FacilityBasedPSG-test-case-5"
        }
      }, {
        "resource": {
          "resourceType": "Condition",
          "id": "Condition-CSA-FacilityBasedPSG-test-case-5",
          "clinicalStatus": {
            "coding": [ {
              "system": "http://terminology.hl7.org/CodeSystem/condition-clinical",
              "code": "active",
              "display": "Active"
            } ]
          },
          "verificationStatus": {
            "coding": [ {
              "system": "http://terminology.hl7.org/CodeSystem/condition-ver-status",
              "code": "confirmed",
              "display": "Confirmed"
            } ]
          },
          "category": [ {
            "coding": [ {
              "system": "http://terminology.hl7.org/CodeSystem/condition-category",
              "code": "problem-list-item",
              "display": "Problem List Item"
            } ]
          } ],
          "code": {
            "coding": [ {
              "system": "http://snomed.info/sct",
              "code": "724506009",
              "display": "Central sleep apnea co-occurrent with Cheyne Stokes respiration (disorder)"
            } ]
          },
          "subject": {
            "reference": "Patient/Patient-EDS-Snoring-apnea"
          },
          "onsetDateTime": "2023-03-01T18:30:00-07:00"
        },
        "request": {
          "method": "PUT",
          "url": "Condition/Condition-CSA-FacilityBasedPSG-test-case-5"
        }
      } ]
    },
    "request": {
      "method": "PUT",
      "url": "Bundle/tests-Patient-EDS-Snoring-apnea-bundle"
    }
  }, {
    "resource": {
      "resourceType": "Bundle",
      "id": "tests-Patient-heart-failure-bundle",
      "type": "transaction",
      "entry": [ {
        "resource": {
          "resourceType": "Condition",
          "id": "Condition-Snoring-FacilityBasedPSG-test-case-3",
          "clinicalStatus": {
            "coding": [ {
              "system": "http://terminology.hl7.org/CodeSystem/condition-clinical",
              "code": "active",
              "display": "Active"
            } ]
          },
          "verificationStatus": {
            "coding": [ {
              "system": "http://terminology.hl7.org/CodeSystem/condition-ver-status",
              "code": "confirmed",
              "display": "Confirmed"
            } ]
          },
          "category": [ {
            "coding": [ {
              "system": "http://terminology.hl7.org/CodeSystem/condition-category",
              "code": "problem-list-item",
              "display": "Problem List Item"
            } ]
          } ],
          "code": {
            "coding": [ {
              "system": "http://hl7.org/fhir/sid/icd-10-cm",
              "code": "I50",
              "display": "Heart failure"
            } ]
          },
          "subject": {
            "reference": "Patient/Patient-heart-failure"
          },
          "onsetDateTime": "2023-01-01T17:30:00-07:00"
        },
        "request": {
          "method": "PUT",
          "url": "Condition/Condition-Snoring-FacilityBasedPSG-test-case-3"
        }
      }, {
        "resource": {
          "resourceType": "Patient",
          "id": "Patient-heart-failure",
          "name": [ {
            "text": "Jim Toth",
            "family": "Toth",
            "given": [ "Jim" ]
          } ],
          "gender": "male",
          "birthDate": "1970-07-27"
        },
        "request": {
          "method": "PUT",
          "url": "Patient/Patient-heart-failure"
        }
      } ]
    },
    "request": {
      "method": "PUT",
      "url": "Bundle/tests-Patient-heart-failure-bundle"
    }
  }, {
    "resource": {
      "resourceType": "Bundle",
      "id": "tests-Patient-patient-insufficient-bundle",
      "type": "transaction",
      "entry": [ {
        "resource": {
          "resourceType": "Observation",
          "id": "daytime-somnolence",
          "status": "final",
          "code": {
            "coding": [ {
              "system": "http://snomed.info/sct",
              "code": "141000119100",
              "display": "Daytime somnolence (finding)"
            } ]
          },
          "subject": {
            "reference": "Patient/Patient-patient-insufficient"
          },
          "effectiveDateTime": "2023-01-10T16:30:00-07:00",
          "valueBoolean": true
        },
        "request": {
          "method": "PUT",
          "url": "Observation/daytime-somnolence"
        }
      }, {
        "resource": {
          "resourceType": "Patient",
          "id": "Patient-patient-insufficient",
          "meta": {
            "profile": [ "http://hl7.org/fhir/us/qicore/StructureDefinition/qicore-patient" ]
          },
          "name": [ {
            "text": "Reese Witherspoon",
            "family": "Witherspoon",
            "given": [ "Reese" ]
          } ],
          "gender": "female",
          "birthDate": "1976-03-22"
        },
        "request": {
          "method": "PUT",
          "url": "Patient/Patient-patient-insufficient"
        }
      } ]
    },
    "request": {
      "method": "PUT",
      "url": "Bundle/tests-Patient-patient-insufficient-bundle"
    }
  }, {
    "resource": {
      "resourceType": "Observation",
      "id": "daytime-somnolence",
      "status": "final",
      "code": {
        "coding": [ {
          "system": "http://snomed.info/sct",
          "code": "141000119100",
          "display": "Daytime somnolence (finding)"
        } ]
      },
      "subject": {
        "reference": "Patient/Patient-patient-insufficient"
      },
      "effectiveDateTime": "2023-01-10T16:30:00-07:00",
      "valueBoolean": true
    },
    "request": {
      "method": "PUT",
      "url": "Observation/daytime-somnolence"
    }
  }, {
    "resource": {
      "resourceType": "Patient",
      "id": "Patient-patient-insufficient",
      "meta": {
        "profile": [ "http://hl7.org/fhir/us/qicore/StructureDefinition/qicore-patient" ]
      },
      "name": [ {
        "text": "Reese Witherspoon",
        "family": "Witherspoon",
        "given": [ "Reese" ]
      } ],
      "gender": "female",
      "birthDate": "1976-03-22"
    },
    "request": {
      "method": "PUT",
      "url": "Patient/Patient-patient-insufficient"
    }
  }, {
    "resource": {
      "resourceType": "Bundle",
      "id": "tests-EDS-hypersomnia-bundle",
      "type": "transaction",
      "entry": [ {
        "resource": {
          "resourceType": "Patient",
          "id": "EDS-hypersomnia",
          "name": [ {
            "text": "Alexis Knapp",
            "family": "Knapp",
            "given": [ "Alexis" ]
          } ],
          "gender": "female",
          "birthDate": "1989-07-31"
        },
        "request": {
          "method": "PUT",
          "url": "Patient/EDS-hypersomnia"
        }
      }, {
        "resource": {
          "resourceType": "Condition",
          "id": "Condition-EDS-FacilityBasedPSG-test-case-6",
          "clinicalStatus": {
            "coding": [ {
              "system": "http://terminology.hl7.org/CodeSystem/condition-clinical",
              "code": "active",
              "display": "Active"
            } ]
          },
          "verificationStatus": {
            "coding": [ {
              "system": "http://terminology.hl7.org/CodeSystem/condition-ver-status",
              "code": "confirmed",
              "display": "Confirmed"
            } ]
          },
          "category": [ {
            "coding": [ {
              "system": "http://terminology.hl7.org/CodeSystem/condition-category",
              "code": "problem-list-item",
              "display": "Problem List Item"
            } ]
          } ],
          "code": {
            "coding": [ {
              "system": "http://snomed.info/sct",
              "code": "194439006",
              "display": "Disorder of excessive somnolence (disorder)"
            } ]
          },
          "subject": {
            "reference": "Patient/EDS-hypersomnia"
          },
          "onsetDateTime": "2023-02-02T17:30:00-07:00"
        },
        "request": {
          "method": "PUT",
          "url": "Condition/Condition-EDS-FacilityBasedPSG-test-case-6"
        }
      }, {
        "resource": {
          "resourceType": "Condition",
          "id": "Condition-hypersomnia-FacilityBasedPSG-test-case-6",
          "clinicalStatus": {
            "coding": [ {
              "system": "http://terminology.hl7.org/CodeSystem/condition-clinical",
              "code": "active",
              "display": "Active"
            } ]
          },
          "verificationStatus": {
            "coding": [ {
              "system": "http://terminology.hl7.org/CodeSystem/condition-ver-status",
              "code": "confirmed",
              "display": "Confirmed"
            } ]
          },
          "category": [ {
            "coding": [ {
              "system": "http://terminology.hl7.org/CodeSystem/condition-category",
              "code": "problem-list-item",
              "display": "Problem List Item"
            } ]
          } ],
          "code": {
            "coding": [ {
              "system": "http://snomed.info/sct",
              "code": "44241600",
              "display": "Idiopathic hypersomnia associated with long sleep time (disorder)"
            } ]
          },
          "subject": {
            "reference": "Patient/EDS-hypersomnia"
          },
          "onsetDateTime": "2023-02-01T18:30:00-07:00"
        },
        "request": {
          "method": "PUT",
          "url": "Condition/Condition-hypersomnia-FacilityBasedPSG-test-case-6"
        }
      }, {
        "resource": {
          "resourceType": "Procedure",
          "id": "MSLT",
          "status": "preparation",
          "code": {
            "coding": [ {
              "system": "http://www.ama-assn.org/go/cpt",
              "code": "95805",
              "display": "Multiple sleep latency or maintenance of wakefulness testing, recording, analysis and interpretation of physiological measurements of sleep during multiple trials to assess sleepiness"
            } ]
          },
          "subject": {
            "reference": "Patient/EDS-hypersomnia"
          }
        },
        "request": {
          "method": "PUT",
          "url": "Procedure/MSLT"
        }
      } ]
    },
    "request": {
      "method": "PUT",
      "url": "Bundle/tests-EDS-hypersomnia-bundle"
    }
  }, {
    "resource": {
      "resourceType": "Patient",
      "id": "Patient-EDS-Snoring-apnea",
      "name": [ {
        "text": "Ryan Phillippe",
        "family": "Phillippe",
        "given": [ "Ryan" ]
      } ],
      "gender": "male",
      "birthDate": "1974-09-10"
    },
    "request": {
      "method": "PUT",
      "url": "Patient/Patient-EDS-Snoring-apnea"
    }
  }, {
    "resource": {
      "resourceType": "Condition",
      "id": "Condition-snoring-FacilityBasedPSG-test-case-5",
      "clinicalStatus": {
        "coding": [ {
          "system": "http://terminology.hl7.org/CodeSystem/condition-clinical",
          "code": "active",
          "display": "Active"
        } ]
      },
      "verificationStatus": {
        "coding": [ {
          "system": "http://terminology.hl7.org/CodeSystem/condition-ver-status",
          "code": "confirmed",
          "display": "Confirmed"
        } ]
      },
      "category": [ {
        "coding": [ {
          "system": "http://terminology.hl7.org/CodeSystem/condition-category",
          "code": "problem-list-item",
          "display": "Problem List Item"
        } ]
      } ],
      "code": {
        "coding": [ {
          "system": "http://hl7.org/fhir/sid/icd-10-cm",
          "code": "R06.83",
          "display": "Snoring"
        } ]
      },
      "subject": {
        "reference": "Patient/Patient-EDS-Snoring-apnea"
      },
      "onsetDateTime": "2023-01-03T11:30:00-07:00"
    },
    "request": {
      "method": "PUT",
      "url": "Condition/Condition-snoring-FacilityBasedPSG-test-case-5"
    }
  }, {
    "resource": {
      "resourceType": "Condition",
      "id": "Condition-EDS-FacilityBasedPSG-test-case-5",
      "clinicalStatus": {
        "coding": [ {
          "system": "http://terminology.hl7.org/CodeSystem/condition-clinical",
          "code": "active",
          "display": "Active"
        } ]
      },
      "verificationStatus": {
        "coding": [ {
          "system": "http://terminology.hl7.org/CodeSystem/condition-ver-status",
          "code": "confirmed",
          "display": "Confirmed"
        } ]
      },
      "category": [ {
        "coding": [ {
          "system": "http://terminology.hl7.org/CodeSystem/condition-category",
          "code": "problem-list-item",
          "display": "Problem List Item"
        } ]
      } ],
      "code": {
        "coding": [ {
          "system": "http://snomed.info/sct",
          "code": "370971007",
          "display": "Somnolence syndrome (disorder)"
        } ]
      },
      "subject": {
        "reference": "Patient/Patient-EDS-Snoring-apnea"
      },
      "onsetDateTime": "2023-02-02T17:30:00-07:00"
    },
    "request": {
      "method": "PUT",
      "url": "Condition/Condition-EDS-FacilityBasedPSG-test-case-5"
    }
  }, {
    "resource": {
      "resourceType": "Condition",
      "id": "Condition-CSA-FacilityBasedPSG-test-case-5",
      "clinicalStatus": {
        "coding": [ {
          "system": "http://terminology.hl7.org/CodeSystem/condition-clinical",
          "code": "active",
          "display": "Active"
        } ]
      },
      "verificationStatus": {
        "coding": [ {
          "system": "http://terminology.hl7.org/CodeSystem/condition-ver-status",
          "code": "confirmed",
          "display": "Confirmed"
        } ]
      },
      "category": [ {
        "coding": [ {
          "system": "http://terminology.hl7.org/CodeSystem/condition-category",
          "code": "problem-list-item",
          "display": "Problem List Item"
        } ]
      } ],
      "code": {
        "coding": [ {
          "system": "http://snomed.info/sct",
          "code": "724506009",
          "display": "Central sleep apnea co-occurrent with Cheyne Stokes respiration (disorder)"
        } ]
      },
      "subject": {
        "reference": "Patient/Patient-EDS-Snoring-apnea"
      },
      "onsetDateTime": "2023-03-01T18:30:00-07:00"
    },
    "request": {
      "method": "PUT",
      "url": "Condition/Condition-CSA-FacilityBasedPSG-test-case-5"
    }
  }, {
    "resource": {
      "resourceType": "Patient",
      "id": "EDS-hypersomnia",
      "name": [ {
        "text": "Alexis Knapp",
        "family": "Knapp",
        "given": [ "Alexis" ]
      } ],
      "gender": "female",
      "birthDate": "1989-07-31"
    },
    "request": {
      "method": "PUT",
      "url": "Patient/EDS-hypersomnia"
    }
  }, {
    "resource": {
      "resourceType": "Condition",
      "id": "Condition-EDS-FacilityBasedPSG-test-case-6",
      "clinicalStatus": {
        "coding": [ {
          "system": "http://terminology.hl7.org/CodeSystem/condition-clinical",
          "code": "active",
          "display": "Active"
        } ]
      },
      "verificationStatus": {
        "coding": [ {
          "system": "http://terminology.hl7.org/CodeSystem/condition-ver-status",
          "code": "confirmed",
          "display": "Confirmed"
        } ]
      },
      "category": [ {
        "coding": [ {
          "system": "http://terminology.hl7.org/CodeSystem/condition-category",
          "code": "problem-list-item",
          "display": "Problem List Item"
        } ]
      } ],
      "code": {
        "coding": [ {
          "system": "http://snomed.info/sct",
          "code": "194439006",
          "display": "Disorder of excessive somnolence (disorder)"
        } ]
      },
      "subject": {
        "reference": "Patient/EDS-hypersomnia"
      },
      "onsetDateTime": "2023-02-02T17:30:00-07:00"
    },
    "request": {
      "method": "PUT",
      "url": "Condition/Condition-EDS-FacilityBasedPSG-test-case-6"
    }
  }, {
    "resource": {
      "resourceType": "Condition",
      "id": "Condition-hypersomnia-FacilityBasedPSG-test-case-6",
      "clinicalStatus": {
        "coding": [ {
          "system": "http://terminology.hl7.org/CodeSystem/condition-clinical",
          "code": "active",
          "display": "Active"
        } ]
      },
      "verificationStatus": {
        "coding": [ {
          "system": "http://terminology.hl7.org/CodeSystem/condition-ver-status",
          "code": "confirmed",
          "display": "Confirmed"
        } ]
      },
      "category": [ {
        "coding": [ {
          "system": "http://terminology.hl7.org/CodeSystem/condition-category",
          "code": "problem-list-item",
          "display": "Problem List Item"
        } ]
      } ],
      "code": {
        "coding": [ {
          "system": "http://snomed.info/sct",
          "code": "44241600",
          "display": "Idiopathic hypersomnia associated with long sleep time (disorder)"
        } ]
      },
      "subject": {
        "reference": "Patient/EDS-hypersomnia"
      },
      "onsetDateTime": "2023-02-01T18:30:00-07:00"
    },
    "request": {
      "method": "PUT",
      "url": "Condition/Condition-hypersomnia-FacilityBasedPSG-test-case-6"
    }
  }, {
    "resource": {
      "resourceType": "Procedure",
      "id": "MSLT",
      "status": "preparation",
      "code": {
        "coding": [ {
          "system": "http://www.ama-assn.org/go/cpt",
          "code": "95805",
          "display": "Multiple sleep latency or maintenance of wakefulness testing, recording, analysis and interpretation of physiological measurements of sleep during multiple trials to assess sleepiness"
        } ]
      },
      "subject": {
        "reference": "Patient/EDS-hypersomnia"
      }
    },
    "request": {
      "method": "PUT",
      "url": "Procedure/MSLT"
    }
  } ]
}